Folder: 3.28test1 (part 4)

File: 李院长 MgO-C C15-骨 1400-200 @ S1-2.csv
#EXPORTTYPE:       ,DATA ALL
#FILE:             ,李院长 MgO-C C15-骨 C15-基 1400.ngb-dl9
#FORMAT:           ,NETZSCH5
#FTYPE:            ,ANSI
#IDENTITY:         ,C15-骨
#DECIMAL:          ,POINT
#SEPARATOR:        ,COMMA
#MTYPE:            ,DIL
#INSTRUMENT:       ,NETZSCH DIL 402SU
#PROJECT:          ,123
#DATE/TIME:        ,2025/6/5 17:20:27 (UTC+8)
#CORR. FILE:       ,石墨炉 1400度-1.ngb-cl9
#TEMPCAL:          ,TCALZERO.TMX
#LABORATORY:       ,wust
#OPERATOR:         ,
#REMARK:           ,
#SAMPLE:           ,镁碳
#SAMPLE LENGTH /mm:,25.96
#MATERIAL:         ,镁碳
#MEASMODE:         ,Standard Expansion
#M.RANGE /μm:      ,50000
#CORR. CODE:       ,080
#RANGE:            ,1403°C/5.0(K/min)/200°C
#SEGMENT:          ,S2/2
#SEG. 2:           ,1403°C/5.0(K/min)/200°C
#Tref:             ,210.0°C

##Temp./°C,Time/min,dL/Lo,Force/N,Gas Flow(protective)/(ml/min),m. CTE(2)/(1/K)
 201.07,516.183,-6.003182e-006,0.29999,60.00000,5.330120e-006
 209.07,514.582, 3.713337e-005,0.29999,60.00000,4.766788e-006
 217.07,513.014, 7.150828e-005,0.29996,60.00000,4.231935e-006
 225.07,511.464, 1.098996e-004,0.29999,60.00000,4.530633e-006
 233.07,509.861, 1.513220e-004,0.29997,60.00000,4.757652e-006
 241.07,508.279, 1.939159e-004,0.30001,60.00000,4.902570e-006
 249.07,506.724, 2.339234e-004,0.29999,60.00000,4.922824e-006
 257.07,505.141, 2.732870e-004,0.29999,60.00000,4.922434e-006
 265.07,503.561, 3.193279e-004,0.29999,60.00000,5.043335e-006
 273.07,501.983, 3.639112e-004,0.29997,60.00000,5.110638e-006
 281.07,500.415, 4.021867e-004,0.29998,60.00000,5.073915e-006
 289.07,498.827, 4.455994e-004,0.30001,60.00000,5.109657e-006
 297.07,497.27, 4.851393e-004,0.30000,60.00000,5.093962e-006
 305.07,495.702, 5.299936e-004,0.30002,60.00000,5.137344e-006
 313.07,494.154, 5.730058e-004,0.30001,60.00000,5.155568e-006
 321.07,492.587, 6.204910e-004,0.29996,60.00000,5.211972e-006
 329.07,491.021, 6.668170e-004,0.30001,60.00000,5.250956e-006
 337.07,489.45, 7.161359e-004,0.30002,60.00000,5.308237e-006
 345.07,487.87, 7.592350e-004,0.30000,60.00000,5.313347e-006
 353.07,486.305, 8.095990e-004,0.30000,60.00000,5.367864e-006
 361.07,484.722, 8.548551e-004,0.30003,60.00000,5.383334e-006
 369.07,483.148, 9.042205e-004,0.30001,60.00000,5.422999e-006
 377.07,481.582, 9.510200e-004,0.29999,60.00000,5.443442e-006
 385.07,480.026, 1.001635e-003,0.30002,60.00000,5.483635e-006
 393.07,478.466, 1.049029e-003,0.30003,60.00000,5.502906e-006
 401.07,476.9, 1.099294e-003,0.30002,60.00000,5.535806e-006
 409.07,475.334, 1.150880e-003,0.29997,60.00000,5.572338e-006
 417.07,473.768, 1.202332e-003,0.29997,60.00000,5.605464e-006
 425.07,472.195, 1.251556e-003,0.30002,60.00000,5.625912e-006
 433.07,470.613, 1.306557e-003,0.29999,60.00000,5.670696e-006
 441.07,469.035, 1.361101e-003,0.29998,60.00000,5.710518e-006
 449.07,467.447, 1.412851e-003,0.30000,60.00000,5.735781e-006
 457.07,465.89, 1.464068e-003,0.29997,60.00000,5.757415e-006
 465.07,464.328, 1.516646e-003,0.29997,60.00000,5.782982e-006
 473.07,462.762, 1.573130e-003,0.30000,60.00000,5.821841e-006
 481.07,461.194, 1.625903e-003,0.29999,60.00000,5.844727e-006
 489.07,459.612, 1.684045e-003,0.29999,60.00000,5.885411e-006
 497.07,458.03, 1.741266e-003,0.29997,60.00000,5.920790e-006
 505.07,456.445, 1.798843e-003,0.29998,60.00000,5.955357e-006
 513.07,454.85, 1.855315e-003,0.29999,60.00000,5.984502e-006
 521.07,453.262, 1.912501e-003,0.30000,60.00000,6.014416e-006
 529.07,451.667, 1.970221e-003,0.29999,60.00000,6.044541e-006
 537.07,450.101, 2.028370e-003,0.29995,60.00000,6.074444e-006
 545.07,448.507, 2.090164e-003,0.30000,60.00000,6.113881e-006
 553.07,446.92, 2.144285e-003,0.29999,60.00000,6.128947e-006
 561.07,445.308, 2.201564e-003,0.30001,60.00000,6.152504e-006
 569.07,443.704, 2.262334e-003,0.29999,60.00000,6.184657e-006
 577.07,442.091, 2.326604e-003,0.30000,60.00000,6.224996e-006
 585.07,440.467, 2.388760e-003,0.29999,60.00000,6.257980e-006
 593.07,438.859, 2.453131e-003,0.29996,60.00000,6.295299e-006
 601.07,437.271, 2.514585e-003,0.30001,60.00000,6.323621e-006
 609.07,435.674, 2.576417e-003,0.30001,60.00000,6.351746e-006
 617.07,434.053, 2.639335e-003,0.29999,60.00000,6.381555e-006
 625.07,432.426, 2.700465e-003,0.29999,60.00000,6.405840e-006
 633.07,430.826, 2.766978e-003,0.29998,60.00000,6.441962e-006
 641.07,429.219, 2.834063e-003,0.30002,60.00000,6.477987e-006
 649.07,427.596, 2.899721e-003,0.29997,60.00000,6.509572e-006
 657.07,426.002, 2.965820e-003,0.30003,60.00000,6.540828e-006
 665.07,424.402, 3.031359e-003,0.30001,60.00000,6.569930e-006
 673.07,422.807, 3.099112e-003,0.30000,60.00000,6.602705e-006
 681.07,421.201, 3.169424e-003,0.29999,60.00000,6.639819e-006
 689.07,419.614, 3.241249e-003,0.30000,60.00000,6.678844e-006
 697.07,418.013, 3.309543e-003,0.29999,60.00000,6.709430e-006
 705.07,416.396, 3.368686e-003,0.30000,60.00000,6.720424e-006
 713.07,414.784, 3.438735e-003,0.30001,60.00000,6.752819e-006
 721.07,413.173, 3.509376e-003,0.29997,60.00000,6.785320e-006
 729.07,411.581, 3.577653e-003,0.30000,60.00000,6.812298e-006
 737.07,409.986, 3.647807e-003,0.30001,60.00000,6.841997e-006
 745.07,408.388, 3.717969e-003,0.29999,60.00000,6.870839e-006
 753.07,406.782, 3.788364e-003,0.29999,60.00000,6.899212e-006
 761.07,405.172, 3.860181e-003,0.30000,60.00000,6.929437e-006
 769.07,403.555, 3.935747e-003,0.29999,60.00000,6.965405e-006
 777.07,401.936, 4.009025e-003,0.30000,60.00000,6.996357e-006
 785.07,400.322, 4.080423e-003,0.30000,60.00000,7.023214e-006
 793.07,398.727, 4.151089e-003,0.30000,60.00000,7.048073e-006
 801.07,397.131, 4.222877e-003,0.30001,60.00000,7.074076e-006
 809.07,395.527, 4.293507e-003,0.30001,60.00000,7.097512e-006
 817.07,393.898, 4.365374e-003,0.29989,60.00000,7.122413e-006
 825.07,392.288, 4.440373e-003,0.29999,60.00000,7.151605e-006
 833.07,390.674, 4.515332e-003,0.29999,60.00000,7.180174e-006
 841.07,389.065, 4.589657e-003,0.29999,60.00000,7.206900e-006
 849.07,387.464, 4.664478e-003,0.29999,60.00000,7.233759e-006
 857.07,385.877, 4.740807e-003,0.29998,60.00000,7.262293e-006
 865.07,384.259, 4.815873e-003,0.30000,60.00000,7.288161e-006
 873.07,382.649, 4.892897e-003,0.29999,60.00000,7.316451e-006
 881.07,381.027, 4.971210e-003,0.29999,60.00000,7.345914e-006
 889.07,379.408, 5.053086e-003,0.29998,60.00000,7.379984e-006
 897.07,377.784, 5.133217e-003,0.30000,60.00000,7.410621e-006
 905.07,376.195, 5.216448e-003,0.30001,60.00000,7.445107e-006
 913.07,374.623, 5.300962e-003,0.29997,60.00000,7.480574e-006
 921.07,373.023, 5.382263e-003,0.30000,60.00000,7.510782e-006
 929.07,371.379, 5.465070e-003,0.29998,60.00000,7.542379e-006
 937.07,369.792, 5.551084e-003,0.30002,60.00000,7.577673e-006
 945.07,368.165, 5.637411e-003,0.30002,60.00000,7.612681e-006
 953.07,366.55, 5.726535e-003,0.30000,60.00000,7.650646e-006
 961.07,364.957, 5.814486e-003,0.29998,60.00000,7.686199e-006
 969.07,363.371, 5.903311e-003,0.29998,60.00000,7.722227e-006
 977.07,361.782, 5.993999e-003,0.29999,60.00000,7.759939e-006
 985.07,360.164, 6.082660e-003,0.30001,60.00000,7.794200e-006
 993.07,358.54, 6.177353e-003,0.30001,60.00000,7.835508e-006
1001.07,356.922, 6.272928e-003,0.30000,60.00000,7.877076e-006
1009.07,355.29, 6.370236e-003,0.30000,60.00000,7.920041e-006
1017.07,353.695, 6.469410e-003,0.30001,60.00000,7.964391e-006
1025.07,352.096, 6.562184e-003,0.29994,60.00000,8.000073e-006
1033.07,350.515, 6.659982e-003,0.29998,60.00000,8.041010e-006
1041.07,348.906, 6.754122e-003,0.29997,60.00000,8.076975e-006
1049.07,347.27, 6.852409e-003,0.30000,60.00000,8.117089e-006
1057.07,345.648, 6.953576e-003,0.30000,60.00000,8.159840e-006
1065.07,344.028, 7.051749e-003,0.29993,60.00000,8.198332e-006
1073.07,342.431, 7.153574e-003,0.29998,60.00000,8.240298e-006
1081.07,340.845, 7.253526e-003,0.29997,60.00000,8.279374e-006
1089.07,339.248, 7.355119e-003,0.30000,60.00000,8.319600e-006
1097.07,337.639, 7.455665e-003,0.29998,60.00000,8.357926e-006
1105.07,336.018, 7.555721e-003,0.29999,60.00000,8.395051e-006
1113.07,334.404, 7.658207e-003,0.30000,60.00000,8.434137e-006
1121.07,332.793, 7.761736e-003,0.29993,60.00000,8.473750e-006
1129.07,331.198, 7.866551e-003,0.30002,60.00000,8.513975e-006
1137.07,329.573, 7.968172e-003,0.30000,60.00000,8.550152e-006
1145.07,327.994, 8.072733e-003,0.29997,60.00000,8.588782e-006
1153.07,326.409, 8.175374e-003,0.30002,60.00000,8.624791e-006
1161.07,324.762, 8.275624e-003,0.30000,60.00000,8.657652e-006
1169.07,323.093, 8.378638e-003,0.29997,60.00000,8.692826e-006
1177.07,321.447, 8.482804e-003,0.30000,60.00000,8.728663e-006
1185.07,319.842, 8.586741e-003,0.30001,60.00000,8.763544e-006
1193.07,318.225, 8.698154e-003,0.30000,60.00000,8.805757e-006
1201.07,316.847, 8.804978e-003,0.29998,60.00000,8.842139e-006
1209.07,314.966, 8.910570e-003,0.29999,60.00000,8.877407e-006
1217.07,313.702, 9.018692e-003,0.29998,60.00000,8.913877e-006
1225.07,311.596, 9.119384e-003,0.29998,60.00000,8.943261e-006
1233.07,310.425, 9.242551e-003,0.29999,60.00000,8.993273e-006
1241.07,308.328, 9.336227e-003,0.30001,60.00000,9.014810e-006
1249.07,307.095, 9.458159e-003,0.30000,60.00000,9.062315e-006
1257.07,305.605, 9.555771e-003,0.29999,60.00000,9.086212e-006
1265.07,303.656, 9.668574e-003,0.29997,60.00000,9.124539e-006
1273.07,302.414, 9.779530e-003,0.29997,60.00000,9.160062e-006
1281.07,300.255, 9.888056e-003,0.29991,60.00000,9.193262e-006
1289.07,299, 1.001110e-002,0.29998,60.00000,9.238840e-006
1297.07,297.224, 1.011724e-002,0.30000,60.00000,9.268724e-006
1305.07,295.58, 1.023849e-002,0.29997,60.00000,9.311640e-006
1313.07,294.003, 1.035717e-002,0.29998,60.00000,9.351695e-006
1321.07,292.401, 1.047818e-002,0.29999,60.00000,9.393283e-006
1329.07,290.743, 1.059661e-002,0.30002,60.00000,9.431957e-006
1337.07,289.098, 1.072593e-002,0.29998,60.00000,9.479720e-006
1345.07,287.518, 1.085712e-002,0.29999,60.00000,9.528489e-006
1353.07,285.896, 1.098778e-002,0.29998,60.00000,9.576067e-006
1361.07,284.206, 1.111994e-002,0.29998,60.00000,9.624417e-006
1369.07,282.652, 1.125697e-002,0.29999,60.00000,9.676170e-006
1377.07,281.165, 1.140191e-002,0.30000,60.00000,9.734079e-006
1385.07,279.765, 1.155212e-002,0.29999,60.00000,9.795614e-006
1393.07,278.394, 1.170763e-002,0.30001,60.00000,9.860804e-006
1399.07,277.321, 1.182894e-002,0.29999,60.00000,9.912969e-006

File: 李院长 MgO-C C15-骨  1400 @ S1-1.csv
#EXPORTTYPE:       ,DATA ALL
#FILE:             ,李院长 MgO-C C15-骨 C15-基 1400.ngb-dl9
#FORMAT:           ,NETZSCH5
#FTYPE:            ,ANSI
#IDENTITY:         ,C15-骨
#DECIMAL:          ,POINT
#SEPARATOR:        ,COMMA
#MTYPE:            ,DIL
#INSTRUMENT:       ,NETZSCH DIL 402SU
#PROJECT:          ,123
#DATE/TIME:        ,2025/6/5 17:20:27 (UTC+8)
#CORR. FILE:       ,石墨炉 1400度-1.ngb-cl9
#TEMPCAL:          ,TCALZERO.TMX
#LABORATORY:       ,wust
#OPERATOR:         ,
#REMARK:           ,
#SAMPLE:           ,镁碳
#SAMPLE LENGTH /mm:,25.96
#MATERIAL:         ,镁碳
#MEASMODE:         ,Standard Expansion
#M.RANGE /μm:      ,50000
#CORR. CODE:       ,080
#RANGE:            ,25°C/5.0(K/min)/1403°C
#SEGMENT:          ,S1/2
#SEG. 1:           ,25°C/5.0(K/min)/1403°C
#Tref:             ,30.0°C

##Temp./°C,Time/min,dL/Lo,Gas Flow(protective)/(ml/min),m. CTE(1)/(1/K)
  50.00000,  4.67629,2.496846e-004,60.00000,1.023689e-005
  57.00000,  5.86570,2.769503e-004,60.00000,8.583831e-006
  64.00000,  7.47456,3.399821e-004,60.00000,8.677104e-006
  71.00000,  8.67981,3.767271e-004,60.00000,8.086290e-006
  78.00000, 10.23250,4.329287e-004,60.00000,8.081968e-006
  85.00000, 11.53138,4.803050e-004,60.00000,7.912333e-006
  92.00000, 12.98162,5.305129e-004,60.00000,7.830204e-006
  99.00000, 14.39281,5.879622e-004,60.00000,7.868487e-006
 106, 15.73972,6.315471e-004,60.00000,7.715955e-006
 113, 17.25210,6.944354e-004,60.00000,7.823882e-006
 120, 18.53695,7.376378e-004,60.00000,7.693932e-006
 127, 20.04769,7.956798e-004,60.00000,7.738412e-006
 134, 21.41028,8.457701e-004,60.00000,7.699074e-006
 141, 22.78956,8.950024e-004,60.00000,7.656870e-006
 148, 24.30753,9.521940e-004,60.00000,7.687572e-006
 155, 25.73964,1.003252e-003,60.00000,7.665639e-006
 162, 27.12273,1.055342e-003,60.00000,7.653512e-006
 169, 28.57914,1.111797e-003,60.00000,7.674180e-006
 176, 30.02516,1.166111e-003,60.00000,7.678445e-006
 183, 31.42369,1.221625e-003,60.00000,7.690046e-006
 190, 32.83728,1.280201e-003,60.00000,7.719529e-006
 197, 34.26569,1.339196e-003,60.00000,7.749251e-006
 204, 35.67622,1.396048e-003,60.00000,7.764328e-006
 211, 37.07646,1.451603e-003,60.00000,7.770802e-006
 218, 38.46737,1.507965e-003,60.00000,7.781382e-006
 225, 39.84657,1.565819e-003,60.00000,7.798665e-006
 232, 41.23555,1.628069e-003,60.00000,7.836668e-006
 239, 42.62399,1.686910e-003,60.00000,7.855796e-006
 246, 44.00267,1.743226e-003,60.00000,7.861633e-006
 253, 45.38889,1.802226e-003,60.00000,7.879596e-006
 260, 46.79151,1.861868e-003,60.00000,7.899036e-006
 267, 48.20670,1.922922e-003,60.00000,7.923290e-006
 274, 49.63219,1.982219e-003,60.00000,7.939112e-006
 281, 51.04422,2.043048e-003,60.00000,7.959941e-006
 288, 52.45426,2.103397e-003,60.00000,7.978103e-006
 295, 53.88519,2.164053e-003,60.00000,7.996274e-006
 302, 55.32020,2.221177e-003,60.00000,8.000366e-006
 309, 56.70260,2.278906e-003,60.00000,8.006474e-006
 316, 58.11968,2.337570e-003,60.00000,8.015729e-006
 323, 59.52311,2.396940e-003,60.00000,8.026694e-006
 330, 60.93677,2.457354e-003,60.00000,8.040821e-006
 337, 62.35958,2.515690e-003,60.00000,8.047551e-006
 344, 63.79005,2.572191e-003,60.00000,8.048153e-006
 351, 65.22255,2.627302e-003,60.00000,8.044348e-006
 358, 66.65126,2.685515e-003,60.00000,8.050085e-006
 365, 68.09975,2.744721e-003,60.00000,8.058714e-006
 372, 69.53062,2.805286e-003,60.00000,8.070722e-006
 379, 70.96738,2.862943e-003,60.00000,8.074168e-006
 386, 72.37589,2.919500e-003,60.00000,8.074209e-006
 393, 73.79715,2.976068e-003,60.00000,8.074450e-006
 400, 75.21377,3.032018e-003,60.00000,8.072835e-006
 407, 76.63317,3.088957e-003,60.00000,8.073886e-006
 414, 78.06590,3.146507e-003,60.00000,8.076660e-006
 421, 79.49005,3.202541e-003,60.00000,8.075363e-006
 428, 80.91092,3.259507e-003,60.00000,8.076403e-006
 435, 82.35407,3.316794e-003,60.00000,8.078332e-006
 442, 83.79288,3.373529e-003,60.00000,8.078747e-006
 449, 85.23357,3.433898e-003,60.00000,8.087871e-006
 456, 86.67009,3.491782e-003,60.00000,8.090900e-006
 463, 88.07960,3.549543e-003,60.00000,8.093420e-006
 470, 89.50480,3.605481e-003,60.00000,8.091857e-006
 477, 90.92007,3.661150e-003,60.00000,8.089681e-006
 484, 92.34252,3.716511e-003,60.00000,8.086849e-006
 491, 93.75857,3.773150e-003,60.00000,8.086920e-006
 498, 95.19119,3.831642e-003,60.00000,8.090946e-006
 505, 96.62265,3.887022e-003,60.00000,8.088316e-006
 512, 98.05407,3.945594e-003,60.00000,8.092252e-006
 519, 99.49745,4.003235e-003,60.00000,8.094373e-006
 526,100.932,4.058034e-003,60.00000,8.090686e-006
 533,102.362,4.113075e-003,60.00000,8.087490e-006
 540,103.766,4.171133e-003,60.00000,8.090293e-006
 547,105.191,4.227566e-003,60.00000,8.089949e-006
 554,106.609,4.282036e-003,60.00000,8.085793e-006
 561,108.016,4.337170e-003,60.00000,8.083038e-006
 568,109.443,4.390933e-003,60.00000,8.077810e-006
 575,110.875,4.450110e-003,60.00000,8.082645e-006
 582,112.295,4.509191e-003,60.00000,8.087175e-006
 589,113.737,4.567274e-003,60.00000,8.089790e-006
 596,115.158,4.622742e-003,60.00000,8.087722e-006
 603,116.572,4.677156e-003,60.00000,8.083957e-006
 610,117.972,4.733473e-003,60.00000,8.083437e-006
 617,119.394,4.791308e-003,60.00000,8.085586e-006
 624,120.806,4.847765e-003,60.00000,8.085353e-006
 631,122.238,4.904181e-003,60.00000,8.085038e-006
 638,123.656,4.960734e-003,60.00000,8.084956e-006
 645,125.072,5.022052e-003,60.00000,8.092623e-006
 652,126.499,5.085047e-003,60.00000,8.102860e-006
 659,127.94,5.146437e-003,60.00000,8.110319e-006
 666,129.4,5.207542e-003,60.00000,8.117068e-006
 673,130.836,5.265798e-003,60.00000,8.119256e-006
 680,132.276,5.328599e-003,60.00000,8.128524e-006
 687,133.69,5.389041e-003,60.00000,8.133937e-006
 694,135.068,5.450131e-003,60.00000,8.140135e-006
 701,136.449,5.513646e-003,60.00000,8.149848e-006
 708,137.907,5.575409e-003,60.00000,8.156898e-006
 715,139.275,5.638399e-003,60.00000,8.165389e-006
 722,140.697,5.705083e-003,60.00000,8.179231e-006
 729,142.107,5.766272e-003,60.00000,8.184830e-006
 736,143.495,5.829944e-003,60.00000,8.193891e-006
 743,144.877,5.894127e-003,60.00000,8.203419e-006
 750,146.264,5.960906e-003,60.00000,8.216446e-006
 757,147.647,6.027566e-003,60.00000,8.228984e-006
 764,149.027,6.095655e-003,60.00000,8.243262e-006
 771,150.414,6.162160e-003,60.00000,8.255167e-006
 778,151.812,6.229631e-003,60.00000,8.268125e-006
 785,153.202,6.301262e-003,60.00000,8.286325e-006
 792,154.598,6.375895e-003,60.00000,8.308166e-006
 799,155.998,6.445726e-003,60.00000,8.323329e-006
 806,157.374,6.513998e-003,60.00000,8.336232e-006
 813,158.753,6.582931e-003,60.00000,8.349731e-006
 820,160.146,6.654056e-003,60.00000,8.365803e-006
 827,161.534,6.724325e-003,60.00000,8.380502e-006
 834,162.917,6.795786e-003,60.00000,8.396418e-006
 841,164.304,6.871010e-003,60.00000,8.416672e-006
 848,165.708,6.942280e-003,60.00000,8.431813e-006
 855,167.113,7.019341e-003,60.00000,8.453659e-006
 862,168.531,7.087757e-003,60.00000,8.464762e-006
 869,169.905,7.160765e-003,60.00000,8.481146e-006
 876,171.279,7.234846e-003,60.00000,8.498536e-006
 883,172.67,7.308005e-003,60.00000,8.514570e-006
 890,174.06,7.380425e-003,60.00000,8.529449e-006
 897,175.439,7.452683e-003,60.00000,8.543975e-006
 904,176.835,7.523667e-003,60.00000,8.556743e-006
 911,178.241,7.595661e-003,60.00000,8.570478e-006
 918,179.659,7.668477e-003,60.00000,8.584906e-006
 925,181.063,7.740187e-003,60.00000,8.597890e-006
 932,182.443,7.813028e-003,60.00000,8.611946e-006
 939,183.821,7.886115e-003,60.00000,8.626003e-006
 946,185.2,7.960667e-003,60.00000,8.641433e-006
 953,186.606,8.031605e-003,60.00000,8.652776e-006
 960,187.972,8.104662e-003,60.00000,8.666217e-006
 967,189.359,8.180676e-003,60.00000,8.682611e-006
 974,190.765,8.255589e-003,60.00000,8.697592e-006
 981,192.175,8.329161e-003,60.00000,8.710911e-006
 988,193.586,8.400038e-003,60.00000,8.721270e-006
 995,194.952,8.472410e-003,60.00000,8.733004e-006
1002,196.335,8.544548e-003,60.00000,8.744308e-006
1009,197.725,8.618122e-003,60.00000,8.756915e-006
1016,199.095,8.690587e-003,60.00000,8.768288e-006
1023,200.49,8.761046e-003,60.00000,8.777416e-006
1030,201.913,8.831488e-003,60.00000,8.786404e-006
1037,203.324,8.904968e-003,60.00000,8.798316e-006
1044,204.729,8.978273e-003,60.00000,8.809854e-006
1051,206.114,9.049578e-003,60.00000,8.819277e-006
1058,207.493,9.123936e-003,60.00000,8.831581e-006
1065,208.88,9.195000e-003,60.00000,8.840492e-006
1072,210.264,9.263480e-003,60.00000,8.846818e-006
1079,211.661,9.330392e-003,60.00000,8.851603e-006
1086,213.067,9.400624e-003,60.00000,8.859419e-006
1093,214.476,9.469411e-003,60.00000,8.865787e-006
1100,215.886,9.536200e-003,60.00000,8.870216e-006
1107,217.282,9.599471e-003,60.00000,8.871305e-006
1114,218.666,9.665623e-003,60.00000,8.875032e-006
1121,220.057,9.732589e-003,60.00000,8.879518e-006
1128,221.426,9.799877e-003,60.00000,8.884113e-006
1135,222.819,9.865507e-003,60.00000,8.887257e-006
1142,224.221,9.931013e-003,60.00000,8.890204e-006
1149,225.621,9.996110e-003,60.00000,8.892796e-006
1156,227.036,1.006104e-002,60.00000,8.895163e-006
1163,228.433,1.012496e-002,60.00000,8.896663e-006
1170,229.818,1.018901e-002,60.00000,8.898196e-006
1177,231.213,1.025330e-002,60.00000,8.899917e-006
1184,232.593,1.031600e-002,60.00000,8.900283e-006
1191,233.979,1.038122e-002,60.00000,8.902821e-006
1198,235.383,1.044172e-002,60.00000,8.901243e-006
1205,236.766,1.050486e-002,60.00000,8.901939e-006
1212,238.194,1.057099e-002,60.00000,8.905160e-006
1219,239.574,1.063396e-002,60.00000,8.905686e-006
1226,240.991,1.069938e-002,60.00000,8.908288e-006
1233,242.268,1.076662e-002,60.00000,8.912235e-006
1240,243.773,1.082480e-002,60.00000,8.908990e-006
1247,244.958,1.089922e-002,60.00000,8.918653e-006
1254,246.638,1.095636e-002,60.00000,8.914556e-006
1261,247.854,1.102469e-002,60.00000,8.919252e-006
1268,249.214,1.109913e-002,60.00000,8.928878e-006
1275,250.85,1.114477e-002,60.00000,8.915514e-006
1282,251.97,1.122455e-002,60.00000,8.929149e-006
1289,253.723,1.127253e-002,60.00000,8.918050e-006
1296,254.752,1.134610e-002,60.00000,8.926428e-006
1303,256.291,1.140734e-002,60.00000,8.925602e-006
1310,257.678,1.145746e-002,60.00000,8.915882e-006
1317,258.826,1.153052e-002,60.00000,8.924067e-006
1324,260.655,1.156433e-002,60.00000,8.902364e-006
1331,261.703,1.163681e-002,60.00000,8.909793e-006
1338,263.225,1.168518e-002,60.00000,8.899110e-006
1345,265.062,1.169308e-002,60.00000,8.858328e-006
1352,265.767,1.177528e-002,60.00000,8.872754e-006
1359,266.966,1.182654e-002,60.00000,8.864854e-006
1366,268.625,1.183920e-002,60.00000,8.827954e-006
1373,270.208,1.185302e-002,60.00000,8.792253e-006
1380,271.579,1.187341e-002,60.00000,8.761726e-006
1387,272.953,1.189498e-002,60.00000,8.732424e-006
1394,274.416,1.190823e-002,60.00000,8.697331e-006
1400,275.589,1.192150e-002,60.00000,8.668893e-006